{
  "resourceType": "Bundle",
  "id": "pas-bundle-example",
  "type": "collection",
  "timestamp": "2024-01-15T10:30:00Z",
  "entry": [
    {
      "fullUrl": "http://fhir-iq.com/Claim/claim-lumbar-mri-001",
      "resource": {
        "resourceType": "Claim",
        "id": "claim-lumbar-mri-001",
        "status": "active",
        "type": {
          "coding": [{
            "system": "http://terminology.hl7.org/CodeSystem/claim-type",
            "code": "professional",
            "display": "Professional"
          }]
        },
        "use": "preauthorization",
        "patient": {
          "reference": "Patient/patient-example-jane-doe"
        },
        "created": "2024-01-15T10:30:00Z",
        "provider": {
          "reference": "Practitioner/practitioner-dr-smith"
        },
        "priority": {
          "coding": [{
            "system": "http://terminology.hl7.org/CodeSystem/processpriority",
            "code": "normal"
          }]
        },
        "item": [{
          "sequence": 1,
          "productOrService": {
            "coding": [{
              "system": "http://www.ama-assn.org/go/cpt",
              "code": "72148",
              "display": "MRI lumbar spine without contrast"
            }]
          },
          "locationCodeableConcept": {
            "coding": [{
              "system": "https://www.cms.gov/Medicare/Coding/place-of-service-codes/Place_of_Service_Code_Set",
              "code": "22",
              "display": "Outpatient Hospital"
            }]
          },
          "quantity": {
            "value": 1
          },
          "unitPrice": {
            "value": 1200.00,
            "currency": "USD"
          }
        }]
      }
    },
    {
      "fullUrl": "http://fhir-iq.com/Patient/patient-example-jane-doe",
      "resource": {
        "resourceType": "Patient",
        "id": "patient-example-jane-doe",
        "name": [{
          "use": "official",
          "family": "Doe",
          "given": ["Jane", "Marie"]
        }],
        "gender": "female",
        "birthDate": "1985-03-15",
        "address": [{
          "use": "home",
          "line": ["123 Main Street"],
          "city": "Anytown",
          "state": "CA",
          "postalCode": "90210",
          "country": "US"
        }],
        "telecom": [{
          "system": "phone",
          "value": "555-123-4567",
          "use": "home"
        }]
      }
    },
    {
      "fullUrl": "http://fhir-iq.com/Practitioner/practitioner-dr-smith",
      "resource": {
        "resourceType": "Practitioner",
        "id": "practitioner-dr-smith",
        "name": [{
          "use": "official",
          "family": "Smith",
          "given": ["John", "Michael"],
          "prefix": ["Dr."]
        }],
        "telecom": [{
          "system": "phone",
          "value": "555-987-6543",
          "use": "work"
        }],
        "qualification": [{
          "code": {
            "coding": [{
              "system": "http://terminology.hl7.org/CodeSystem/v2-0360",
              "code": "MD",
              "display": "Doctor of Medicine"
            }]
          }
        }]
      }
    },
    {
      "fullUrl": "http://fhir-iq.com/Organization/provider-organization-spine-clinic",
      "resource": {
        "resourceType": "Organization",
        "id": "provider-organization-spine-clinic",
        "name": "Spine Care Clinic",
        "telecom": [{
          "system": "phone",
          "value": "555-456-7890",
          "use": "work"
        }],
        "address": [{
          "use": "work",
          "line": ["456 Medical Plaza"],
          "city": "Anytown",
          "state": "CA",
          "postalCode": "90210",
          "country": "US"
        }]
      }
    },
    {
      "fullUrl": "http://fhir-iq.com/QuestionnaireResponse/dtr-response-001",
      "resource": {
        "resourceType": "QuestionnaireResponse",
        "id": "dtr-response-001",
        "status": "completed",
        "questionnaire": "http://fhir-iq.com/Questionnaire/imaging-lumbar-mri",
        "subject": {
          "reference": "Patient/patient-example-jane-doe"
        },
        "authored": "2024-01-15T09:45:00Z",
        "item": [
          {
            "linkId": "conservative-therapy",
            "text": "Has the patient tried conservative therapy (PT, medications)?",
            "answer": [{
              "valueBoolean": true
            }]
          },
          {
            "linkId": "neurologic-deficit",
            "text": "Are there signs of neurologic deficit?",
            "answer": [{
              "valueBoolean": true
            }]
          },
          {
            "linkId": "symptom-duration",
            "text": "How long has the patient had symptoms (weeks)?",
            "answer": [{
              "valueInteger": 8
            }]
          },
          {
            "linkId": "red-flags",
            "text": "Are there any red flag symptoms present?",
            "answer": [{
              "valueBoolean": false
            }]
          }
        ]
      }
    }
  ]
}