{
  "resourceType": "Bundle",
  "id": "pas-response-example-lumbar-mri-approved",
  "meta": {
    "profile": [
      "http://hl7.org/fhir/us/davinci-pas/StructureDefinition/profile-pas-response-bundle"
    ]
  },
  "identifier": {
    "system": "http://fhir-iq.com/pas-bundle-identifier",
    "value": "PAS-RESP-2024-001234"
  },
  "type": "collection",
  "timestamp": "2024-09-26T10:35:00-05:00",
  "entry": [
    {
      "fullUrl": "http://fhir-iq.com/ClaimResponse/pa-response-lumbar-mri-approved",
      "resource": {
        "resourceType": "ClaimResponse",
        "id": "pa-response-lumbar-mri-approved",
        "meta": {
          "profile": [
            "http://hl7.org/fhir/us/davinci-pas/StructureDefinition/profile-claimresponse"
          ]
        },
        "identifier": [
          {
            "system": "http://aetna.com/prior-auth-number",
            "value": "PA-2024-AETNA-789123"
          }
        ],
        "status": "active",
        "type": {
          "coding": [
            {
              "system": "http://terminology.hl7.org/CodeSystem/claim-type",
              "code": "professional",
              "display": "Professional"
            }
          ]
        },
        "use": "preauthorization",
        "patient": {
          "reference": "Patient/patient-example-jane-doe"
        },
        "created": "2024-09-26T10:35:00-05:00",
        "insurer": {
          "reference": "Organization/aetna-health-plan"
        },
        "requestor": {
          "reference": "Organization/provider-organization-spine-clinic"
        },
        "request": {
          "reference": "Claim/pa-request-lumbar-mri"
        },
        "outcome": "complete",
        "disposition": "Prior authorization approved",
        "preAuthRef": "PA-2024-AETNA-789123",
        "preAuthPeriod": {
          "start": "2024-09-26",
          "end": "2025-03-26"
        },
        "item": [
          {
            "itemSequence": 1,
            "adjudication": [
              {
                "category": {
                  "coding": [
                    {
                      "system": "http://terminology.hl7.org/CodeSystem/adjudication",
                      "code": "eligible",
                      "display": "Eligible Amount"
                    }
                  ]
                },
                "amount": {
                  "value": 1200.00,
                  "currency": "USD"
                }
              },
              {
                "category": {
                  "coding": [
                    {
                      "system": "http://hl7.org/fhir/us/davinci-pas/CodeSystem/PASDJAdjudicationValueCodes",
                      "code": "approved",
                      "display": "Approved"
                    }
                  ]
                }
              }
            ],
            "extension": [
              {
                "url": "http://hl7.org/fhir/us/davinci-pas/StructureDefinition/extension-itemAuthorizedDate",
                "valuePeriod": {
                  "start": "2024-10-01",
                  "end": "2024-12-31"
                }
              },
              {
                "url": "http://hl7.org/fhir/us/davinci-pas/StructureDefinition/extension-authorizationNumber",
                "valueString": "PA-2024-AETNA-789123"
              }
            ]
          }
        ],
        "communicationRequest": [
          {
            "extension": [
              {
                "url": "http://hl7.org/fhir/us/davinci-pas/StructureDefinition/extension-communicationRequest",
                "valueReference": {
                  "reference": "CommunicationRequest/approval-notification-lumbar-mri"
                }
              }
            ]
          }
        ]
      }
    },
    {
      "fullUrl": "http://fhir-iq.com/CommunicationRequest/approval-notification-lumbar-mri",
      "resource": {
        "resourceType": "CommunicationRequest",
        "id": "approval-notification-lumbar-mri",
        "status": "active",
        "category": [
          {
            "coding": [
              {
                "system": "http://hl7.org/fhir/us/davinci-pas/CodeSystem/PASTempCodes",
                "code": "approval-notification",
                "display": "Approval Notification"
              }
            ]
          }
        ],
        "priority": "routine",
        "subject": {
          "reference": "Patient/patient-example-jane-doe"
        },
        "about": [
          {
            "reference": "Claim/pa-request-lumbar-mri"
          }
        ],
        "authoredOn": "2024-09-26T10:35:00-05:00",
        "requester": {
          "reference": "Organization/aetna-health-plan"
        },
        "recipient": [
          {
            "reference": "Organization/provider-organization-spine-clinic"
          }
        ],
        "payload": [
          {
            "contentString": "Prior authorization PA-2024-AETNA-789123 has been APPROVED for lumbar MRI (CPT 72148) for patient Jane Doe. Authorization is valid from 2024-10-01 through 2024-12-31. Please schedule the procedure within the authorized timeframe."
          }
        ]
      }
    },
    {
      "fullUrl": "http://fhir-iq.com/Task/pa-processing-task-lumbar-mri",
      "resource": {
        "resourceType": "Task",
        "id": "pa-processing-task-lumbar-mri",
        "status": "completed",
        "intent": "order",
        "code": {
          "coding": [
            {
              "system": "http://hl7.org/fhir/us/davinci-pas/CodeSystem/PASTempCodes",
              "code": "prior-auth-review",
              "display": "Prior Authorization Review"
            }
          ]
        },
        "focus": {
          "reference": "Claim/pa-request-lumbar-mri"
        },
        "for": {
          "reference": "Patient/patient-example-jane-doe"
        },
        "authoredOn": "2024-09-26T10:30:00-05:00",
        "lastModified": "2024-09-26T10:35:00-05:00",
        "requester": {
          "reference": "Organization/provider-organization-spine-clinic"
        },
        "owner": {
          "reference": "Organization/aetna-health-plan"
        },
        "businessStatus": {
          "coding": [
            {
              "system": "http://hl7.org/fhir/us/davinci-pas/CodeSystem/PASTempCodes",
              "code": "approved",
              "display": "Approved"
            }
          ]
        },
        "output": [
          {
            "type": {
              "coding": [
                {
                  "system": "http://hl7.org/fhir/us/davinci-pas/CodeSystem/PASTempCodes",
                  "code": "claim-response",
                  "display": "Claim Response"
                }
              ]
            },
            "valueReference": {
              "reference": "ClaimResponse/pa-response-lumbar-mri-approved"
            }
          }
        ]
      }
    }
  ]
}