{
  "resourceType": "Bundle",
  "id": "pas-request-example",
  "meta": {
    "profile": [
      "http://hl7.org/fhir/us/davinci-pas/StructureDefinition/profile-pas-request-bundle"
    ]
  },
  "type": "collection",
  "timestamp": "2025-09-26T10:30:00-05:00",
  "entry": [
    {
      "fullUrl": "http://fhir-iq.com/Claim/pas-claim-example",
      "resource": {
        "resourceType": "Claim",
        "id": "pas-claim-example",
        "meta": {
          "profile": [
            "http://hl7.org/fhir/us/davinci-pas/StructureDefinition/profile-claim"
          ]
        },
        "identifier": [
          {
            "system": "http://fhir-iq.com/claim-id",
            "value": "CLAIM-2025-09-26-001"
          }
        ],
        "status": "active",
        "type": {
          "coding": [
            {
              "system": "http://terminology.hl7.org/CodeSystem/claim-type",
              "code": "professional",
              "display": "Professional"
            }
          ]
        },
        "use": "preauthorization",
        "patient": {
          "reference": "Patient/patient-example"
        },
        "created": "2025-09-26T10:30:00-05:00",
        "insurer": {
          "reference": "Organization/payer-example"
        },
        "provider": {
          "reference": "Organization/provider-example"
        },
        "priority": {
          "coding": [
            {
              "system": "http://terminology.hl7.org/CodeSystem/processpriority",
              "code": "normal",
              "display": "Normal"
            }
          ]
        },
        "supportingInfo": [
          {
            "sequence": 1,
            "category": {
              "coding": [
                {
                  "system": "http://hl7.org/fhir/us/davinci-pas/CodeSystem/PASSupportingInfoType",
                  "code": "questionnaire-response",
                  "display": "Questionnaire Response"
                }
              ]
            },
            "valueReference": {
              "reference": "QuestionnaireResponse/questionnaire-response-example"
            }
          }
        ],
        "diagnosis": [
          {
            "sequence": 1,
            "diagnosisCodeableConcept": {
              "coding": [
                {
                  "system": "http://hl7.org/fhir/sid/icd-10-cm",
                  "code": "M54.5",
                  "display": "Low back pain"
                }
              ]
            },
            "type": [
              {
                "coding": [
                  {
                    "system": "http://terminology.hl7.org/CodeSystem/ex-diagnosistype",
                    "code": "principal",
                    "display": "Principal Diagnosis"
                  }
                ]
              }
            ]
          }
        ],
        "insurance": [
          {
            "sequence": 1,
            "focal": true,
            "coverage": {
              "reference": "Coverage/coverage-example"
            }
          }
        ],
        "item": [
          {
            "sequence": 1,
            "category": {
              "coding": [
                {
                  "system": "https://www.cms.gov/Medicare/Coding/MedHCPCSGenInfo",
                  "code": "1",
                  "display": "Medical Care"
                }
              ]
            },
            "productOrService": {
              "coding": [
                {
                  "system": "http://www.ama-assn.org/go/cpt",
                  "code": "72148",
                  "display": "Magnetic resonance (eg, proton) imaging, spinal canal and contents, lumbar; without contrast material"
                }
              ]
            },
            "servicedDate": "2025-10-01",
            "locationCodeableConcept": {
              "coding": [
                {
                  "system": "https://www.cms.gov/Medicare/Coding/place-of-service-codes/Place_of_Service_Code_Set",
                  "code": "22",
                  "display": "On Campus-Outpatient Hospital"
                }
              ]
            },
            "unitPrice": {
              "value": 1200.00,
              "currency": "USD"
            },
            "net": {
              "value": 1200.00,
              "currency": "USD"
            }
          }
        ],
        "total": {
          "value": 1200.00,
          "currency": "USD"
        }
      }
    },
    {
      "fullUrl": "http://fhir-iq.com/Patient/patient-example",
      "resource": {
        "resourceType": "Patient",
        "id": "patient-example",
        "meta": {
          "profile": [
            "http://hl7.org/fhir/us/core/StructureDefinition/us-core-patient"
          ]
        },
        "identifier": [
          {
            "type": {
              "coding": [
                {
                  "system": "http://terminology.hl7.org/CodeSystem/v2-0203",
                  "code": "MR",
                  "display": "Medical Record Number"
                }
              ]
            },
            "system": "http://provider-example.com/mrn",
            "value": "MRN123456789"
          }
        ],
        "active": true,
        "name": [
          {
            "use": "official",
            "family": "Patient",
            "given": [
              "Jane",
              "Marie"
            ]
          }
        ],
        "telecom": [
          {
            "system": "phone",
            "value": "555-123-4567",
            "use": "home"
          }
        ],
        "gender": "female",
        "birthDate": "1985-03-15",
        "address": [
          {
            "use": "home",
            "line": [
              "123 Main Street"
            ],
            "city": "Springfield",
            "state": "IL",
            "postalCode": "62701",
            "country": "USA"
          }
        ]
      }
    },
    {
      "fullUrl": "http://fhir-iq.com/Coverage/coverage-example",
      "resource": {
        "resourceType": "Coverage",
        "id": "coverage-example",
        "identifier": [
          {
            "system": "http://payer-example.com/member-id",
            "value": "MEMBER789456123"
          }
        ],
        "status": "active",
        "type": {
          "coding": [
            {
              "system": "http://terminology.hl7.org/CodeSystem/v3-ActCode",
              "code": "EHCPOL",
              "display": "Extended Healthcare Policy"
            }
          ]
        },
        "beneficiary": {
          "reference": "Patient/patient-example"
        },
        "period": {
          "start": "2025-01-01",
          "end": "2025-12-31"
        },
        "payor": [
          {
            "reference": "Organization/payer-example"
          }
        ]
      }
    },
    {
      "fullUrl": "http://fhir-iq.com/Organization/provider-example",
      "resource": {
        "resourceType": "Organization",
        "id": "provider-example",
        "meta": {
          "profile": [
            "http://hl7.org/fhir/us/core/StructureDefinition/us-core-organization"
          ]
        },
        "identifier": [
          {
            "type": {
              "coding": [
                {
                  "system": "http://terminology.hl7.org/CodeSystem/v2-0203",
                  "code": "NPI",
                  "display": "National provider identifier"
                }
              ]
            },
            "system": "http://hl7.org/fhir/sid/us-npi",
            "value": "1234567890"
          }
        ],
        "active": true,
        "type": [
          {
            "coding": [
              {
                "system": "http://terminology.hl7.org/CodeSystem/organization-type",
                "code": "prov",
                "display": "Healthcare Provider"
              }
            ]
          }
        ],
        "name": "Springfield Medical Center",
        "telecom": [
          {
            "system": "phone",
            "value": "555-987-6543"
          }
        ],
        "address": [
          {
            "line": [
              "456 Healthcare Drive"
            ],
            "city": "Springfield",
            "state": "IL",
            "postalCode": "62702",
            "country": "USA"
          }
        ]
      }
    },
    {
      "fullUrl": "http://fhir-iq.com/Organization/payer-example",
      "resource": {
        "resourceType": "Organization",
        "id": "payer-example",
        "identifier": [
          {
            "system": "http://hl7.org/fhir/sid/us-npi",
            "value": "9876543210"
          }
        ],
        "active": true,
        "type": [
          {
            "coding": [
              {
                "system": "http://terminology.hl7.org/CodeSystem/organization-type",
                "code": "ins",
                "display": "Insurance Company"
              }
            ]
          }
        ],
        "name": "FHIR IQ Health Insurance",
        "telecom": [
          {
            "system": "phone",
            "value": "800-555-0123"
          }
        ]
      }
    },
    {
      "fullUrl": "http://fhir-iq.com/QuestionnaireResponse/questionnaire-response-example",
      "resource": {
        "resourceType": "QuestionnaireResponse",
        "id": "questionnaire-response-example",
        "meta": {
          "profile": [
            "http://hl7.org/fhir/us/davinci-dtr/StructureDefinition/dtr-questionnaireresponse"
          ]
        },
        "questionnaire": "http://fhir-iq.com/Questionnaire/imaging-lumbar-mri",
        "status": "completed",
        "subject": {
          "reference": "Patient/patient-example"
        },
        "authored": "2025-09-26T10:25:00-05:00",
        "author": {
          "reference": "Organization/provider-example"
        },
        "item": [
          {
            "linkId": "indication",
            "text": "Primary clinical indication (ICD-10)",
            "answer": [
              {
                "valueCoding": {
                  "system": "http://hl7.org/fhir/sid/icd-10-cm",
                  "code": "M54.5",
                  "display": "Low back pain"
                }
              }
            ]
          },
          {
            "linkId": "failed-conservative",
            "text": "Failure of conservative therapy (>=6 weeks)?",
            "answer": [
              {
                "valueBoolean": true
              }
            ]
          },
          {
            "linkId": "neuro-deficit",
            "text": "Objective neurologic deficit present?",
            "answer": [
              {
                "valueBoolean": false
              }
            ]
          },
          {
            "linkId": "prior-imaging",
            "text": "Previous imaging studies of lumbar spine?",
            "answer": [
              {
                "valueBoolean": false
              }
            ]
          },
          {
            "linkId": "red-flags",
            "text": "Red flag symptoms present (fever, bowel/bladder dysfunction, progressive weakness)?",
            "answer": [
              {
                "valueBoolean": false
              }
            ]
          }
        ]
      }
    }
  ]
}